Folder: Machine-Learning-for-LPBF_AM_

Note: README.md
# Machine-Learning-for-LPBF_AM_

# lab-conda

Command to run app.py file:

`python app.py`

File: cleaned_data_lpbf.csv
Material,Laser power (W),Laser speed (mm/s),Layer thickness (um),Hatch spacing (um),Beam size (um),Scanning strategy,Linear energy density (J/m),Yield strength (MPa),Ultimate tensile strength (MPa),Enlongation (%)
0,250,700,50,120,80,0,357.143,668.0,1011.0,22.0
0,250,700,50,120,80,0,357.143,645.0,1025.0,38.0
0,950,320,100,500,100,0,2968.75,531.0,866.0,21.0
0,950,320,100,500,100,0,2968.75,481.0,788.0,34.0
0,250,700,50,120,80,0,357.143,650.0,845.0,28.0
0,250,700,50,120,80,0,357.143,942.0,1078.0,20.0
0,950,320,100,500,100,0,2968.75,479.0,665.0,28.0
0,350,800,40,120,100,0,437.5,873.0,1126.0,28.6
0,350,800,40,120,100,0,437.5,1369.0,1529.0,18.6
0,350,800,40,120,100,0,437.5,1361.0,1509.0,20.4
0,350,800,40,120,100,0,437.5,1248.0,1457.0,22.0
0,350,800,40,120,100,0,437.5,1037.0,1329.0,27.8
0,350,800,40,120,100,0,437.5,1268.0,1476.0,17.9
0,350,800,40,120,100,0,437.5,1356.0,1500.0,20.8
0,160,800,50,160,80,1,200.0,760.0,1335.0,21.3
0,160,800,50,160,80,1,200.0,1135.0,1530.0,10.6
0,160,800,50,160,80,1,200.0,1300.0,1580.0,9.6
0,180,600,35,105,80,2,300.0,1123.0,1323.0,21.0
0,200,900,30,90,70,2,222.222,686.0,994.0,31.3
0,200,900,30,90,70,2,222.222,1319.0,1434.0,15.5
0,200,900,30,90,70,2,222.222,1395.0,1551.0,11.5
1,200,1000,50,80,75,2,200.0,487.0,594.0,49.0
1,175,800,40,120,100,2,218.75,567.0,685.0,34.5
1,190,800,40,120,100,2,237.5,582.0,708.0,34.5
1,170,700,60,120,100,2,242.857,528.0,659.0,16.6
1,90,600,25,84,35,2,150.0,520.0,585.0,55.0
1,100,200,50,120,200,2,500.0,463.0,687.0,25.0
1,100,200,50,120,200,2,500.0,440.0,662.0,28.0
1,350,1000,60,200,100,2,350.0,439.0,579.0,21.0
1,350,1000,60,200,100,2,350.0,365.0,582.0,31.0
1,350,1000,60,200,100,2,350.0,257.0,592.0,47.0
1,100,700,20,50,50,0,142.857,528.342,618.182,27.758
1,100,700,20,70,50,0,142.857,541.176,645.989,36.327
1,150,700,20,50,50,0,214.286,510.16,647.326,41.73
1,150,700,20,70,50,0,214.286,525.134,649.198,40.798
1,200,750,50,110,65,0,266.667,537.849,639.193,26.3028
1,200,750,50,110,65,0,266.667,445.191,628.335,29.2558
1,200,750,50,110,65,0,266.667,401.758,602.275,27.7085
1,200,750,50,110,65,0,266.667,477.026,497.979,2.9993
1,200,750,50,110,65,0,266.667,427.802,534.736,12.6249
1,200,750,50,110,65,0,266.667,364.104,429.196,4.7328
1,100,100,30,120,200,2,266.667,441.5,570.8,28.9
1,100,100,30,120,200,2,1000.0,306.5,550.7,35.5
1,100,200,30,120,200,2,500.0,196.3,288.1,9.6
1,100,280,30,120,200,2,500.0,175.0,189.3,1.9
1,100,280,30,120,200,2,357.143,130.9,171.5,3.9
1,120,100,30,120,200,2,1200.0,321.7,570.2,51.2
1,120,200,30,120,200,2,1200.0,400.6,462.0,7.1
1,120,200,30,120,200,2,600.0,265.1,447.8,14.9
1,120,280,30,120,200,2,428.571,174.8,243.3,6.8
1,140,100,30,120,200,2,428.571,455.2,585.8,40.8
1,140,100,30,120,200,2,1400.0,319.0,566.7,52.7
1,140,200,30,120,200,2,700.0,290.8,497.0,22.9
1,140,280,30,120,200,2,700.0,301.4,347.8,5.6
1,140,280,30,120,200,2,500.0,221.3,332.6,9.6
2,194,1000,20,70,100,3,194.0,1030.0,1268.0,4.2
2,170,300,30,100,100,4,566.667,1140.0,1160.0,4.4
2,130,500,30,100,100,4,260.0,1204.0,1213.0,5.0
2,210,500,30,100,100,4,420.0,1160.0,1200.0,4.7
2,170,700,30,100,100,4,242.857,1200.0,1210.0,4.9
2,130,900,30,100,100,4,144.444,944.0,999.0,3.5
2,210,900,30,100,100,4,233.333,1200.0,1200.0,4.9
2,170,1100,30,100,100,4,154.545,950.0,1010.0,3.7
2,130,1300,30,100,100,4,100.0,889.0,938.0,2.6
2,210,1300,30,100,100,4,161.538,960.0,1020.0,3.9
2,170,300,30,100,100,4,566.667,1150.0,1200.0,5.3
2,130,500,30,100,100,4,260.0,1216.0,1257.0,6.1
2,210,500,30,100,100,4,420.0,1180.0,1240.0,5.8
2,170,700,30,100,100,4,242.857,1210.0,1250.0,6.1
2,130,900,30,100,100,4,144.444,935.0,958.0,2.5
2,210,900,30,100,100,4,233.333,1200.0,1250.0,6.1
2,170,1100,30,100,100,4,154.545,940.0,970.0,2.9
2,130,1300,30,100,100,4,100.0,879.0,897.0,1.8
2,210,1300,30,100,100,4,161.538,950.0,980.0,3.0
2,200,1000,50,100,40,3,200.0,1127.33,1219.67,4.36667
2,200,1000,50,100,40,3,200.0,1181.33,1260.67,5.06667
2,200,1000,50,100,40,3,200.0,1181.33,1260.67,5.06667
2,250,1600,30,60,52,3,156.25,1118.0,1223.0,5.36
2,250,1600,30,60,52,3,156.25,801.0,874.0,13.45
2,250,1600,30,60,52,3,156.25,1026.0,1082.0,9.04
2,250,1600,30,60,52,3,156.25,822.0,902.0,12.74
2,200,650,50,80,65,3,307.692,1159.0,1234.0,9.48
2,200,650,50,80,65,3,307.692,1176.0,1223.0,9.99
2,375,858,60,120,88,3,437.063,1141.0,1241.0,6.5
2,375,1160,60,120,88,3,323.276,1135.0,1250.0,8.0
2,375,1235,60,120,88,3,303.644,1144.0,1252.0,6.0
2,375,643,80,120,88,3,583.204,1206.0,1297.0,1.5
2,375,870,80,120,88,3,431.034,1171.0,1280.0,4.0
2,280,1250,30,120,88,3,224.0,982.0,1079.0,10.5
2,250,1600,30,70,54,3,156.25,1140.0,1290.0,7.6
2,157,350,50,100,70,3,448.571,974.0,1065.0,7.0
2,157,350,50,100,70,3,448.571,937.0,1052.0,9.6
2,170,1250,30,100,100,3,136.0,1070.0,1126.0,5.1
2,280,1200,30,140,100,3,233.333,1150.0,1180.0,7.0
2,280,1200,30,140,100,3,233.333,985.0,1068.0,13.8
2,280,1200,30,140,100,3,233.333,858.0,951.0,12.9
2,280,1200,30,140,100,3,233.333,1190.0,1236.0,7.6
2,280,1200,30,140,100,3,233.333,974.0,1063.0,12.3
2,280,1200,30,140,100,3,233.333,861.0,959.0,13.0
2,280,1200,50,50,100,3,233.333,996.0,1223.0,7.0
2,280,1200,50,50,100,3,233.333,850.0,933.0,15.0
2,280,1200,50,50,100,3,233.333,840.0,979.0,4.0
3,175,1025,30,97.5,60,1,170.7,269.7,374.1,3.8
3,175,1025,30,97.5,60,1,170.7,210.9,274.5,1.6
3,175,1025,30,97.5,60,1,170.7,93.4,135.1,18.7
3,175,1025,30,97.5,60,1,170.7,269.2,307.9,3.2
3,175,1025,30,97.5,60,1,170.7,212.4,224.3,0.8
3,175,1025,30,97.5,60,1,170.7,279.8,309.6,2.0
3,400,1000,60,200,125,5,16666.7,204.0,358.0,7.2
3,400,1000,60,200,125,5,16666.7,181.0,286.0,10.0
3,400,1000,60,200,125,5,16666.7,158.0,189.0,16.4
3,400,1000,60,200,125,5,16666.7,70.0,73.0,41.4
3,400,1000,60,200,125,5,16666.7,12.0,14.0,57.4
3,400,1000,60,200,125,5,16666.7,241.0,384.0,6.0
3,400,1000,60,200,125,5,16666.7,241.0,384.0,6.0
3,400,1000,60,200,125,5,16666.7,241.0,384.0,6.0
3,400,1000,60,200,125,5,16666.7,241.0,384.0,6.0
3,400,1000,60,200,125,5,16666.7,205.0,253.0,18.0
3,400,1000,60,200,125,5,16666.7,205.0,253.0,18.0
3,400,1000,60,200,125,5,16666.7,205.0,253.0,18.0
3,400,1000,60,200,125,5,16666.7,186.0,233.0,22.0
3,400,1000,60,200,125,5,16666.7,186.0,233.0,22.0
3,400,1000,60,200,125,5,16666.7,115.0,141.0,35.0
3,400,1000,60,200,125,5,16666.7,115.0,141.0,35.0
3,400,1000,60,200,125,5,16666.7,115.0,141.0,35.0