Folder: Machine-Learning-for-LPBF_AM_/training_models

Note: README.md
# Machine-Learning-for-LPBF_AM_

# lab-conda

Command to run app.py file:

`python app.py`

File: cleaned_dataset_updated.csv
Material,Laser power (W),Laser speed (mm/s),Layer thickness (um),Hatch spacing (um),Beam size (um),Scanning strategy,Linear energy density (J/m),Volumetric energy density (J/mm3),Yield strength (MPa),Ultimate tensile strength (MPa),Enlongation (%)
0,250,700,50,120.0,80,0,357.143,59.5238,668.0,1011.0,22.0
0,250,700,50,120.0,80,0,357.143,59.5238,645.0,1025.0,38.0
0,950,320,100,500.0,100,0,2968.75,59.375,531.0,866.0,21.0
0,950,320,100,500.0,100,0,2968.75,59.375,481.0,788.0,34.0
0,250,700,50,120.0,80,0,357.143,59.5238,650.0,845.0,28.0
0,250,700,50,120.0,80,0,357.143,59.5238,942.0,1078.0,20.0
0,950,320,100,500.0,100,0,2968.75,59.375,479.0,665.0,28.0
0,350,800,40,120.0,100,0,437.5,91.1458,873.0,1126.0,28.6
0,350,800,40,120.0,100,0,437.5,91.1458,1369.0,1529.0,18.6
0,350,800,40,120.0,100,0,437.5,91.1458,1361.0,1509.0,20.4
0,350,800,40,120.0,100,0,437.5,91.1458,1248.0,1457.0,22.0
0,350,800,40,120.0,100,0,437.5,91.1458,1037.0,1329.0,27.8
0,350,800,40,120.0,100,0,437.5,91.1458,1268.0,1476.0,17.9
0,350,800,40,120.0,100,0,437.5,91.1458,1356.0,1500.0,20.8
0,160,800,50,160.0,80,1,200.0,25.0,760.0,1335.0,21.3
0,160,800,50,160.0,80,1,200.0,25.0,1135.0,1530.0,10.6
0,160,800,50,160.0,80,1,200.0,25.0,1300.0,1580.0,9.6
0,180,600,35,105.0,80,2,300.0,81.6327,1123.0,1323.0,21.0
0,200,900,30,90.0,70,2,222.222,82.3045,686.0,994.0,31.3
0,200,900,30,90.0,70,2,222.222,82.3045,1319.0,1434.0,15.5
0,200,900,30,90.0,70,2,222.222,82.3045,1395.0,1551.0,11.5
1,200,1000,50,80.0,75,2,200.0,50.0,487.0,594.0,49.0
1,175,800,40,120.0,100,2,218.75,45.5729,567.0,685.0,34.5
1,190,800,40,120.0,100,2,237.5,49.4792,582.0,708.0,34.5
1,170,700,60,120.0,100,2,242.857,33.7302,528.0,659.0,16.6
1,90,600,25,84.0,35,2,150.0,71.4286,520.0,585.0,55.0
1,100,200,50,120.0,200,2,500.0,83.3333,463.0,687.0,25.0
1,100,200,50,120.0,200,2,500.0,83.3333,440.0,662.0,28.0
1,350,1000,60,200.0,100,2,350.0,29.1667,439.0,579.0,21.0
1,350,1000,60,200.0,100,2,350.0,29.1667,365.0,582.0,31.0
1,350,1000,60,200.0,100,2,350.0,29.1667,257.0,592.0,47.0
1,100,700,20,50.0,50,0,142.857,142.857,528.342,618.182,27.758
1,100,700,20,70.0,50,0,142.857,102.041,541.176,645.989,36.327
1,150,700,20,50.0,50,0,214.286,214.286,510.16,647.326,41.73
1,150,700,20,70.0,50,0,214.286,153.061,525.134,649.198,40.798
1,200,750,50,110.0,65,0,266.667,48.4848,537.849,639.193,26.3028
1,200,750,50,110.0,65,0,266.667,48.4848,445.191,628.335,29.2558
1,200,750,50,110.0,65,0,266.667,48.4848,401.758,602.275,27.7085
1,200,750,50,110.0,65,0,266.667,48.4848,477.026,497.979,2.9993
1,200,750,50,110.0,65,0,266.667,48.4848,427.802,534.736,12.6249
1,200,750,50,110.0,65,0,266.667,48.4848,364.104,429.196,4.7328
1,100,100,30,120.0,200,2,266.667,74.0741,441.5,570.8,28.9
1,100,100,30,120.0,200,2,1000.0,277.778,306.5,550.7,35.5
1,100,200,30,120.0,200,2,500.0,138.889,196.3,288.1,9.6
1,100,280,30,120.0,200,2,500.0,138.889,175.0,189.3,1.9
1,100,280,30,120.0,200,2,357.143,99.2063,130.9,171.5,3.9
1,120,100,30,120.0,200,2,1200.0,333.333,321.7,570.2,51.2
1,120,200,30,120.0,200,2,1200.0,333.333,400.6,462.0,7.1
1,120,200,30,120.0,200,2,600.0,166.667,265.1,447.8,14.9
1,120,280,30,120.0,200,2,428.571,119.048,174.8,243.3,6.8
1,140,100,30,120.0,200,2,428.571,119.048,455.2,585.8,40.8
1,140,100,30,120.0,200,2,1400.0,388.889,319.0,566.7,52.7
1,140,200,30,120.0,200,2,700.0,194.444,290.8,497.0,22.9
1,140,280,30,120.0,200,2,700.0,194.444,301.4,347.8,5.6
1,140,280,30,120.0,200,2,500.0,138.889,221.3,332.6,9.6
2,194,1000,20,70.0,100,3,194.0,138.571,1030.0,1268.0,4.2
2,170,300,30,100.0,100,4,566.667,188.889,1140.0,1160.0,4.4
2,130,500,30,100.0,100,4,260.0,86.6667,1204.0,1213.0,5.0
2,210,500,30,100.0,100,4,420.0,140.0,1160.0,1200.0,4.7
2,170,700,30,100.0,100,4,242.857,80.9524,1200.0,1210.0,4.9
2,130,900,30,100.0,100,4,144.444,48.1481,944.0,999.0,3.5
2,210,900,30,100.0,100,4,233.333,77.7778,1200.0,1200.0,4.9
2,170,1100,30,100.0,100,4,154.545,51.5152,950.0,1010.0,3.7
2,130,1300,30,100.0,100,4,100.0,33.3333,889.0,938.0,2.6
2,210,1300,30,100.0,100,4,161.538,53.8462,960.0,1020.0,3.9
2,170,300,30,100.0,100,4,566.667,188.889,1150.0,1200.0,5.3
2,130,500,30,100.0,100,4,260.0,86.6667,1216.0,1257.0,6.1
2,210,500,30,100.0,100,4,420.0,140.0,1180.0,1240.0,5.8
2,170,700,30,100.0,100,4,242.857,80.9524,1210.0,1250.0,6.1
2,130,900,30,100.0,100,4,144.444,48.1481,935.0,958.0,2.5
2,210,900,30,100.0,100,4,233.333,77.7778,1200.0,1250.0,6.1
2,170,1100,30,100.0,100,4,154.545,51.5152,940.0,970.0,2.9
2,130,1300,30,100.0,100,4,100.0,33.3333,879.0,897.0,1.8
2,210,1300,30,100.0,100,4,161.538,53.8462,950.0,980.0,3.0
2,200,1000,50,100.0,40,3,200.0,40.0,1127.33,1219.67,4.36667
2,250,1600,30,60.0,52,3,156.25,86.8056,1110.0,1267.0,7.28
2,250,1600,30,60.0,52,3,156.25,86.8056,955.0,1004.0,12.84
2,250,1600,30,60.0,52,3,156.25,86.8056,760.0,840.0,14.06
2,250,1600,30,60.0,52,3,156.25,86.8056,899.0,948.0,13.59
2,200,650,50,80.0,65,3,307.692,76.9231,1139.0,1233.0,6.01
2,200,650,50,80.0,65,3,307.692,76.9231,1173.0,1232.0,9.73
2,200,650,50,80.0,65,3,307.692,76.9231,1174.0,1201.0,2.5
2,375,1029,60,120.0,88,3,364.431,50.6155,1144.0,1253.0,8.0
2,375,1029,60,120.0,88,3,364.431,50.6155,1162.0,1268.0,5.0
2,375,1392,60,120.0,88,3,269.397,37.4162,1138.0,1257.0,8.3
2,375,772,80,120.0,88,3,485.751,50.5991,1177.0,1280.0,3.5
2,375,1029,60,120.0,88,3,364.431,50.6155,1141.0,1244.0,5.5
2,100,800,30,84.0,54,3,125.0,49.6032,1110.0,1305.0,8.6
2,157,350,50,100.0,70,3,448.571,89.7143,1075.0,1199.0,7.6
2,157,350,50,100.0,70,3,448.571,89.7143,967.0,1117.0,8.9
2,170,1250,30,100.0,100,3,136.0,45.3333,1084.0,1262.0,6.1
2,280,1200,30,140.0,100,3,233.333,55.5556,1040.0,1310.0,8.7
2,280,1200,30,140.0,100,3,233.333,55.5556,1060.0,1080.0,11.7
2,280,1200,30,140.0,100,3,233.333,55.5556,936.0,1014.0,12.8
2,280,1200,30,140.0,100,3,233.333,55.5556,1190.0,1302.0,6.8
2,280,1200,30,140.0,100,3,233.333,55.5556,947.0,1012.0,9.8
2,280,1200,30,140.0,100,3,233.333,55.5556,974.0,1058.0,12.3
2,280,1200,50,50.0,100,3,233.333,93.3333,1065.0,1241.0,6.0
2,280,1200,50,50.0,100,3,233.333,93.3333,869.0,945.0,18.0
2,280,1200,50,50.0,100,3,233.333,93.3333,837.0,919.0,12.0
2,280,1200,50,50.0,100,3,233.333,93.3333,839.0,941.0,19.0
3,195,1200,20,90.0,100,5,162.5,90.2778,783.0,1041.0,33.0
3,195,1200,20,90.0,100,5,162.5,90.2778,369.0,883.0,55.0
4,175,1025,30,97.5,60,1,170.7,58.4,269.7,374.1,3.8
4,175,1025,30,97.5,60,1,170.7,58.4,210.9,274.5,1.6
4,175,1025,30,97.5,60,1,170.7,58.4,93.4,135.1,18.7
4,175,1025,30,97.5,60,1,170.7,58.4,269.2,307.9,3.2
4,175,1025,30,97.5,60,1,170.7,58.4,212.4,224.3,0.8
4,175,1025,30,97.5,60,1,170.7,58.4,279.8,309.6,2.0
4,400,1000,60,200.0,125,5,16666.7,666.667,204.0,358.0,7.2
4,400,1000,60,200.0,125,5,16666.7,666.667,181.0,286.0,10.0
4,400,1000,60,200.0,125,5,16666.7,666.667,158.0,189.0,16.4
4,400,1000,60,200.0,125,5,16666.7,666.667,70.0,73.0,41.4
4,400,1000,60,200.0,125,5,16666.7,666.667,12.0,14.0,57.4
5,95,200,30,90.0,50,2,475.0,175.926,350.0,560.0,41.0